map_name,route_name_training,condition,key,route_name_actual,map.thisRepN,map.thisTrialN,map.thisN,map.thisIndex,training_trials.thisRepN,training_trials.thisTrialN,training_trials.thisN,training_trials.thisIndex,map2.thisRepN,map2.thisTrialN,map2.thisN,map2.thisIndex,trials.thisRepN,trials.thisTrialN,trials.thisN,trials.thisIndex,consent_text.started,consent_text.stopped,consent_key_resp.keys,consent_key_resp.rt,consent_key_resp.started,consent_key_resp.stopped,text_2.started,text_2.stopped,journey_map_2.started,journey_map_2.stopped,routes_training.started,routes_training.stopped,text_3.started,text_3.stopped,training_resp.keys,training_resp.rt,training_resp.started,training_resp.stopped,text_8.started,text_8.stopped,key_resp_8.keys,key_resp_8.rt,key_resp_8.started,key_resp_8.stopped,journey_map.started,journey_map.stopped,route_actual.started,route_actual.stopped,text_actual.started,text_actual.stopped,response_2.keys,response_2.rt,response_2.started,response_2.stopped,text_7.started,text_7.stopped,key_resp_7.keys,key_resp_7.rt,key_resp_7.started,key_resp_7.stopped,ID (INITIALS and TODAYS DATE),date,expName,psychopyVersion,frameRate,compensated, 
,,,,,,,,,,,,,,,,,,,,,33.63388025,None,space,11.57478958,33.63388025,None,,,,,,,,,,,,,,,,,,,,,,,,,,,,,,,,,,,CK28022020,2020_Feb_28_1603,FOCO (control),3.2.4,59.93123706,
maps/training_map.jpg,,,,,0,0,0,0,,,,,,,,,,,,,,,,,,,45.23721784,None,120.3590391,None,,,,,,,,,,,,,,,,,,,,,,,,,,,,,,,CK28022020,2020_Feb_28_1603,FOCO (control),3.2.4,59.93123706,
,routes_training/train2.jpg,green,i,,,,,,0,0,0,1,,,,,,,,,,,,,,,,,,,130.295602,None,129.8095455,130.3135623,e,10.49911455,130.295602,None,,,,,,,,,,,,,,,,,,,,,,,CK28022020,2020_Feb_28_1603,FOCO (control),3.2.4,59.93123706,
,routes_training/train1.jpg,green,i,,,,,,0,1,1,0,,,,,,,,,,,,,,,,,,,141.4329439,None,140.9652968,141.4682489,i,11.60544223,141.4329439,None,,,,,,,,,,,,,,,,,,,,,,,CK28022020,2020_Feb_28_1603,FOCO (control),3.2.4,59.93123706,
,routes_training/train3.jpg,green,i,,,,,,0,2,2,2,,,,,,,,,,,,,,,,,,,153.6556393,None,153.1873597,153.6895331,i,25.32618561,153.6556393,None,,,,,,,,,,,,,,,,,,,,,,,CK28022020,2020_Feb_28_1603,FOCO (control),3.2.4,59.93123706,
,routes_training/train5.jpg,green,e,,,,,,0,3,3,4,,,,,,,,,,,,,,,,,,,179.6179853,None,179.1335885,179.6345111,e,13.59157562,179.6179853,None,,,,,,,,,,,,,,,,,,,,,,,CK28022020,2020_Feb_28_1603,FOCO (control),3.2.4,59.93123706,
,routes_training/train4.jpg,green,e,,,,,,0,4,4,3,,,,,,,,,,,,,,,,,,,193.857989,None,193.373844,193.874811,i,5.690158549,193.857989,None,,,,,,,,,,,,,,,,,,,,,,,CK28022020,2020_Feb_28_1603,FOCO (control),3.2.4,59.93123706,
,,,,,,,,,,,,,,,,,,,,,,,,,,,,,,,,,,,,,,,199.6110144,None,space,19.41001681,200.1105744,None,,,,,,,,,,,,,,,,,CK28022020,2020_Feb_28_1603,FOCO (control),3.2.4,59.93123706,
maps/main_map.jpg,,,,,,,,,,,,,0,0,0,0,,,,,,,,,,,,,,,,,,,,,,,,,,,,,220.170397,None,,,,,,,,,,,,,,,CK28022020,2020_Feb_28_1603,FOCO (control),3.2.4,59.93123706,
,,green f1,e,routes_actual/p1_L_tick_f1xR_blank_f2.jpg,,,,,,,,,,,,,0,0,0,4,,,,,,,,,,,,,,,,,,,,,,,,,,,230.2257332,None,229.7409341,230.242419,i,8.873209727,230.2257332,None,,,,,,,CK28022020,2020_Feb_28_1603,FOCO (control),3.2.4,59.93123706,not compensated
,,green c,e,routes_actual/p2_L_tick_f1xR_blank_f1.jpg,,,,,,,,,,,,,0,1,1,9,,,,,,,,,,,,,,,,,,,,,,,,,,,239.7298915,None,239.2617681,239.7641712,i,17.09315171,239.7298915,None,,,,,,,CK28022020,2020_Feb_28_1603,FOCO (control),3.2.4,59.93123706,not compensated
,,green c,e,routes_actual/p1_L_tick_f1xR_blank_f1.jpg,,,,,,,,,,,,,0,2,2,3,,,,,,,,,,,,,,,,,,,,,,,,,,,257.4547411,None,256.9712514,257.4713512,i,13.85351092,257.4547411,None,,,,,,,CK28022020,2020_Feb_28_1603,FOCO (control),3.2.4,59.93123706,not compensated
,,green f2,i,routes_actual/p1_L_blank_f1xR_tick_f2.jpg,,,,,,,,,,,,,0,3,3,1,,,,,,,,,,,,,,,,,,,,,,,,,,,271.9449369,None,271.4769648,271.9790146,i,5.615512423,271.9449369,None,,,,,,,CK28022020,2020_Feb_28_1603,FOCO (control),3.2.4,59.93123706,compensated
,,green c,i,routes_actual/p3_L_blank_f1xR_tick_f1.jpg,,,,,,,,,,,,,0,4,4,12,,,,,,,,,,,,,,,,,,,,,,,,,,,278.214848,None,277.733206,278.248619,e,12.07736747,278.214848,None,,,,,,,CK28022020,2020_Feb_28_1603,FOCO (control),3.2.4,59.93123706,not compensated
,,green f1,e,routes_actual/p2_L_tick_f1xR_blank_f2.jpg,,,,,,,,,,,,,0,5,5,10,,,,,,,,,,,,,,,,,,,,,,,,,,,290.9872402,None,290.5191411,291.0212414,e,8.143770436,290.9872402,None,,,,,,,CK28022020,2020_Feb_28_1603,FOCO (control),3.2.4,59.93123706,compensated
,,green c,i,routes_actual/p1_L_blank_f1xR_tick_f1.jpg,,,,,,,,,,,,,0,6,6,0,,,,,,,,,,,,,,,,,,,,,,,,,,,299.7748715,None,299.2930309,299.8084818,i,8.909710746,299.7748715,None,,,,,,,CK28022020,2020_Feb_28_1603,FOCO (control),3.2.4,59.93123706,compensated
,,green f2,e,routes_actual/p2_L_tick_f2xR_blank_f1.jpg,,,,,,,,,,,,,0,7,7,11,,,,,,,,,,,,,,,,,,,,,,,,,,,309.3295077,None,308.8480689,309.3635688,i,3.386830401,309.3295077,None,,,,,,,CK28022020,2020_Feb_28_1603,FOCO (control),3.2.4,59.93123706,not compensated
,,green f2,e,routes_actual/p3_L_tick_f2xR_blank_f1.jpg,,,,,,,,,,,,,0,8,8,17,,,,,,,,,,,,,,,,,,,,,,,,,,,313.3648448,None,312.8672548,313.3810785,i,8.112446425,313.3648448,None,,,,,,,CK28022020,2020_Feb_28_1603,FOCO (control),3.2.4,59.93123706,not compensated
,,green c,i,routes_actual/p2_L_blank_f1xR_tick_f1.jpg,,,,,,,,,,,,,0,9,9,6,,,,,,,,,,,,,,,,,,,,,,,,,,,322.1186864,None,321.6518202,322.152464,e,22.5997253,322.1186864,None,,,,,,,CK28022020,2020_Feb_28_1603,FOCO (control),3.2.4,59.93123706,not compensated
,,green f1,i,routes_actual/p2_L_blank_f2xR_tick_f1.jpg,,,,,,,,,,,,,0,10,10,8,,,,,,,,,,,,,,,,,,,,,,,,,,,345.3630121,None,344.8792088,345.3796274,i,6.96762188,345.3630121,None,,,,,,,CK28022020,2020_Feb_28_1603,FOCO (control),3.2.4,59.93123706,compensated
,,green f2,i,routes_actual/p3_L_blank_f1xR_tick_f2.jpg,,,,,,,,,,,,,0,11,11,13,,,,,,,,,,,,,,,,,,,,,,,,,,,352.966789,None,352.4831441,352.9835568,i,3.72037396,352.966789,None,,,,,,,CK28022020,2020_Feb_28_1603,FOCO (control),3.2.4,59.93123706,compensated
,,green f2,i,routes_actual/p2_L_blank_f1xR_tick_f2.jpg,,,,,,,,,,,,,0,12,12,7,,,,,,,,,,,,,,,,,,,,,,,,,,,357.3356196,None,356.8512868,357.3523762,e,7.795502304,357.3356196,None,,,,,,,CK28022020,2020_Feb_28_1603,FOCO (control),3.2.4,59.93123706,not compensated
,,green f1,i,routes_actual/p1_L_blank_f2xR_tick_f1.jpg,,,,,,,,,,,,,0,13,13,2,,,,,,,,,,,,,,,,,,,,,,,,,,,365.7728666,None,365.2887141,365.7894199,e,3.569295765,365.7728666,None,,,,,,,CK28022020,2020_Feb_28_1603,FOCO (control),3.2.4,59.93123706,not compensated
,,green c,e,routes_actual/p3_L_tick_f1xR_blank_f1.jpg,,,,,,,,,,,,,0,14,14,15,,,,,,,,,,,,,,,,,,,,,,,,,,,369.9916849,None,369.4927936,370.0084403,i,3.138205656,369.9916849,None,,,,,,,CK28022020,2020_Feb_28_1603,FOCO (control),3.2.4,59.93123706,not compensated
,,green f2,e,routes_actual/p1_L_tick_f2xR_blank_f1.jpg,,,,,,,,,,,,,0,15,15,5,,,,,,,,,,,,,,,,,,,,,,,,,,,373.776398,None,373.2938111,373.7932249,i,8.32516616,373.776398,None,,,,,,,CK28022020,2020_Feb_28_1603,FOCO (control),3.2.4,59.93123706,not compensated
,,green f1,i,routes_actual/p3_L_blank_f2xR_tick_f1.jpg,,,,,,,,,,,,,0,16,16,14,,,,,,,,,,,,,,,,,,,,,,,,,,,382.7474664,None,382.267112,382.7815616,e,2.642061395,382.7474664,None,,,,,,,CK28022020,2020_Feb_28_1603,FOCO (control),3.2.4,59.93123706,not compensated
,,green f1,e,routes_actual/p3_L_tick_f1xR_blank_f2.jpg,,,,,,,,,,,,,0,17,17,16,,,,,,,,,,,,,,,,,,,,,,,,,,,386.0322735,None,385.5489322,386.0490507,i,6.131844648,386.0322735,None,,,,,,,CK28022020,2020_Feb_28_1603,FOCO (control),3.2.4,59.93123706,not compensated
,,green c,i,routes_actual/p1_L_blank_f1xR_tick_f1.jpg,,,,,,,,,,,,,1,0,18,0,,,,,,,,,,,,,,,,,,,,,,,,,,,392.802739,None,392.3178587,392.8193401,e,6.46108366,392.802739,None,,,,,,,CK28022020,2020_Feb_28_1603,FOCO (control),3.2.4,59.93123706,not compensated
,,green f2,i,routes_actual/p2_L_blank_f1xR_tick_f2.jpg,,,,,,,,,,,,,1,1,19,7,,,,,,,,,,,,,,,,,,,,,,,,,,,399.9059083,None,399.4220873,399.9233812,e,7.326609921,399.9059083,None,,,,,,,CK28022020,2020_Feb_28_1603,FOCO (control),3.2.4,59.93123706,not compensated
,,green f1,i,routes_actual/p3_L_blank_f2xR_tick_f1.jpg,,,,,,,,,,,,,1,2,20,14,,,,,,,,,,,,,,,,,,,,,,,,,,,407.8931722,None,407.3942469,407.9098764,i,9.721602055,407.8931722,None,,,,,,,CK28022020,2020_Feb_28_1603,FOCO (control),3.2.4,59.93123706,compensated
,,green c,e,routes_actual/p2_L_tick_f1xR_blank_f1.jpg,,,,,,,,,,,,,1,3,21,9,,,,,,,,,,,,,,,,,,,,,,,,,,,418.2475492,None,417.7637433,418.2642465,e,9.451758737,418.2475492,None,,,,,,,CK28022020,2020_Feb_28_1603,FOCO (control),3.2.4,59.93123706,compensated
,,green f2,e,routes_actual/p1_L_tick_f2xR_blank_f1.jpg,,,,,,,,,,,,,1,4,22,5,,,,,,,,,,,,,,,,,,,,,,,,,,,428.3357139,None,427.8514202,428.3523932,i,3.833081052,428.3357139,None,,,,,,,CK28022020,2020_Feb_28_1603,FOCO (control),3.2.4,59.93123706,not compensated
,,green f1,e,routes_actual/p1_L_tick_f1xR_blank_f2.jpg,,,,,,,,,,,,,1,5,23,4,,,,,,,,,,,,,,,,,,,,,,,,,,,432.8045905,None,432.3200075,432.8214535,i,1.356228974,432.8045905,None,,,,,,,CK28022020,2020_Feb_28_1603,FOCO (control),3.2.4,59.93123706,not compensated
,,green f1,e,routes_actual/p2_L_tick_f1xR_blank_f2.jpg,,,,,,,,,,,,,1,6,24,10,,,,,,,,,,,,,,,,,,,,,,,,,,,434.7886648,None,434.3042699,434.8057406,e,1.924159391,434.7886648,None,,,,,,,CK28022020,2020_Feb_28_1603,FOCO (control),3.2.4,59.93123706,compensated
,,green f1,e,routes_actual/p3_L_tick_f1xR_blank_f2.jpg,,,,,,,,,,,,,1,7,25,16,,,,,,,,,,,,,,,,,,,,,,,,,,,437.3568421,None,436.8716796,437.3734949,i,4.303270203,437.3568421,None,,,,,,,CK28022020,2020_Feb_28_1603,FOCO (control),3.2.4,59.93123706,not compensated
,,green c,e,routes_actual/p1_L_tick_f1xR_blank_f1.jpg,,,,,,,,,,,,,1,8,26,3,,,,,,,,,,,,,,,,,,,,,,,,,,,442.2918916,None,441.8098136,442.3259872,i,3.717685591,442.2918916,None,,,,,,,CK28022020,2020_Feb_28_1603,FOCO (control),3.2.4,59.93123706,not compensated
,,green c,i,routes_actual/p3_L_blank_f1xR_tick_f1.jpg,,,,,,,,,,,,,1,9,27,12,,,,,,,,,,,,,,,,,,,,,,,,,,,446.6444285,None,446.1607692,446.6611526,e,3.667929489,446.6444285,None,,,,,,,CK28022020,2020_Feb_28_1603,FOCO (control),3.2.4,59.93123706,not compensated
,,green f2,e,routes_actual/p3_L_tick_f2xR_blank_f1.jpg,,,,,,,,,,,,,1,10,28,17,,,,,,,,,,,,,,,,,,,,,,,,,,,450.9462998,None,450.4641844,450.9802438,e,4.468929271,450.9462998,None,,,,,,,CK28022020,2020_Feb_28_1603,FOCO (control),3.2.4,59.93123706,compensated
,,green f2,e,routes_actual/p2_L_tick_f2xR_blank_f1.jpg,,,,,,,,,,,,,1,11,29,11,,,,,,,,,,,,,,,,,,,,,,,,,,,456.0656113,None,455.5809655,456.0825705,e,8.314979954,456.0656113,None,,,,,,,CK28022020,2020_Feb_28_1603,FOCO (control),3.2.4,59.93123706,compensated
,,green f2,i,routes_actual/p1_L_blank_f1xR_tick_f2.jpg,,,,,,,,,,,,,1,12,30,1,,,,,,,,,,,,,,,,,,,,,,,,,,,465.0199182,None,464.5521519,465.0547988,e,2.504791218,465.0199182,None,,,,,,,CK28022020,2020_Feb_28_1603,FOCO (control),3.2.4,59.93123706,not compensated
,,green f1,i,routes_actual/p1_L_blank_f2xR_tick_f1.jpg,,,,,,,,,,,,,1,13,31,2,,,,,,,,,,,,,,,,,,,,,,,,,,,468.1713533,None,467.7206264,468.2225058,e,1.849223945,468.1713533,None,,,,,,,CK28022020,2020_Feb_28_1603,FOCO (control),3.2.4,59.93123706,not compensated
,,green c,i,routes_actual/p2_L_blank_f1xR_tick_f1.jpg,,,,,,,,,,,,,1,14,32,6,,,,,,,,,,,,,,,,,,,,,,,,,,,470.6725973,None,470.1883971,470.6892619,e,2.299991232,470.6725973,None,,,,,,,CK28022020,2020_Feb_28_1603,FOCO (control),3.2.4,59.93123706,not compensated
,,green f2,i,routes_actual/p3_L_blank_f1xR_tick_f2.jpg,,,,,,,,,,,,,1,15,33,13,,,,,,,,,,,,,,,,,,,,,,,,,,,473.6071294,None,473.1234982,473.6240162,e,7.457919511,473.6071294,None,,,,,,,CK28022020,2020_Feb_28_1603,FOCO (control),3.2.4,59.93123706,not compensated
,,green f1,i,routes_actual/p2_L_blank_f2xR_tick_f1.jpg,,,,,,,,,,,,,1,16,34,8,,,,,,,,,,,,,,,,,,,,,,,,,,,481.711217,None,481.2267512,481.7280148,i,7.348074463,481.711217,None,,,,,,,CK28022020,2020_Feb_28_1603,FOCO (control),3.2.4,59.93123706,compensated
,,green c,e,routes_actual/p3_L_tick_f1xR_blank_f1.jpg,,,,,,,,,,,,,1,17,35,15,,,,,,,,,,,,,,,,,,,,,,,,,,,489.6984536,None,489.2145202,489.7149748,i,3.428353445,489.6984536,None,,,,,,,CK28022020,2020_Feb_28_1603,FOCO (control),3.2.4,59.93123706,not compensated
,,green c,i,routes_actual/p1_L_blank_f1xR_tick_f1.jpg,,,,,,,,,,,,,2,0,36,0,,,,,,,,,,,,,,,,,,,,,,,,,,,493.7667818,None,493.2822733,493.783455,e,4.428946379,493.7667818,None,,,,,,,CK28022020,2020_Feb_28_1603,FOCO (control),3.2.4,59.93123706,not compensated
,,green f2,e,routes_actual/p2_L_tick_f2xR_blank_f1.jpg,,,,,,,,,,,,,2,1,37,11,,,,,,,,,,,,,,,,,,,,,,,,,,,498.8357904,None,498.35118,498.8525614,i,2.271999862,498.8357904,None,,,,,,,CK28022020,2020_Feb_28_1603,FOCO (control),3.2.4,59.93123706,not compensated
,,green f2,e,routes_actual/p3_L_tick_f2xR_blank_f1.jpg,,,,,,,,,,,,,2,2,38,17,,,,,,,,,,,,,,,,,,,,,,,,,,,501.753958,None,501.2707994,501.7707769,e,5.310459768,501.753958,None,,,,,,,CK28022020,2020_Feb_28_1603,FOCO (control),3.2.4,59.93123706,compensated
,,green f1,i,routes_actual/p2_L_blank_f2xR_tick_f1.jpg,,,,,,,,,,,,,2,3,39,8,,,,,,,,,,,,,,,,,,,,,,,,,,,507.7234235,None,507.2254738,507.7405188,i,4.594190114,507.7234235,None,,,,,,,CK28022020,2020_Feb_28_1603,FOCO (control),3.2.4,59.93123706,compensated
,,green f1,e,routes_actual/p1_L_tick_f1xR_blank_f2.jpg,,,,,,,,,,,,,2,4,40,4,,,,,,,,,,,,,,,,,,,,,,,,,,,512.959047,None,512.4775073,512.9929669,e,3.753988285,512.959047,None,,,,,,,CK28022020,2020_Feb_28_1603,FOCO (control),3.2.4,59.93123706,compensated
,,green c,e,routes_actual/p1_L_tick_f1xR_blank_f1.jpg,,,,,,,,,,,,,2,5,41,3,,,,,,,,,,,,,,,,,,,,,,,,,,,517.3613429,None,516.8765043,517.3783333,i,6.263964048,517.3613429,None,,,,,,,CK28022020,2020_Feb_28_1603,FOCO (control),3.2.4,59.93123706,not compensated
,,green f1,i,routes_actual/p1_L_blank_f2xR_tick_f1.jpg,,,,,,,,,,,,,2,6,42,2,,,,,,,,,,,,,,,,,,,,,,,,,,,524.2646699,None,523.797578,524.2988036,i,2.128699521,524.2646699,None,,,,,,,CK28022020,2020_Feb_28_1603,FOCO (control),3.2.4,59.93123706,compensated
,,green f2,e,routes_actual/p1_L_tick_f2xR_blank_f1.jpg,,,,,,,,,,,,,2,7,43,5,,,,,,,,,,,,,,,,,,,,,,,,,,,527.0325006,None,526.5523951,527.0663297,i,1.664805112,527.0325006,None,,,,,,,CK28022020,2020_Feb_28_1603,FOCO (control),3.2.4,59.93123706,not compensated
,,green f1,e,routes_actual/p3_L_tick_f1xR_blank_f2.jpg,,,,,,,,,,,,,2,8,44,16,,,,,,,,,,,,,,,,,,,,,,,,,,,529.3330171,None,528.8502368,529.3499841,e,2.276339418,529.3330171,None,,,,,,,CK28022020,2020_Feb_28_1603,FOCO (control),3.2.4,59.93123706,compensated
,,green f2,i,routes_actual/p1_L_blank_f1xR_tick_f2.jpg,,,,,,,,,,,,,2,9,45,1,,,,,,,,,,,,,,,,,,,,,,,,,,,532.2514492,None,531.7687274,532.2681512,e,2.133842896,532.2514492,None,,,,,,,CK28022020,2020_Feb_28_1603,FOCO (control),3.2.4,59.93123706,not compensated
,,green c,i,routes_actual/p3_L_blank_f1xR_tick_f1.jpg,,,,,,,,,,,,,2,10,46,12,,,,,,,,,,,,,,,,,,,,,,,,,,,535.0362968,None,534.5522566,535.0530172,e,2.684963036,535.0362968,None,,,,,,,CK28022020,2020_Feb_28_1603,FOCO (control),3.2.4,59.93123706,not compensated
,,green c,e,routes_actual/p2_L_tick_f1xR_blank_f1.jpg,,,,,,,,,,,,,2,11,47,9,,,,,,,,,,,,,,,,,,,,,,,,,,,538.3544906,None,537.8707513,538.3711721,i,1.526763055,538.3544906,None,,,,,,,CK28022020,2020_Feb_28_1603,FOCO (control),3.2.4,59.93123706,not compensated
,,green f2,i,routes_actual/p3_L_blank_f1xR_tick_f2.jpg,,,,,,,,,,,,,2,12,48,13,,,,,,,,,,,,,,,,,,,,,,,,,,,540.5221263,None,540.0377178,540.5389911,e,3.4868485,540.5221263,None,,,,,,,CK28022020,2020_Feb_28_1603,FOCO (control),3.2.4,59.93123706,not compensated
,,green f2,i,routes_actual/p2_L_blank_f1xR_tick_f2.jpg,,,,,,,,,,,,,2,13,49,7,,,,,,,,,,,,,,,,,,,,,,,,,,,544.6574109,None,544.1730652,544.674041,i,5.254070533,544.6574109,None,,,,,,,CK28022020,2020_Feb_28_1603,FOCO (control),3.2.4,59.93123706,compensated
,,green c,e,routes_actual/p3_L_tick_f1xR_blank_f1.jpg,,,,,,,,,,,,,2,14,50,15,,,,,,,,,,,,,,,,,,,,,,,,,,,550.5437624,None,550.0604471,550.5602914,e,2.695734332,550.5437624,None,,,,,,,CK28022020,2020_Feb_28_1603,FOCO (control),3.2.4,59.93123706,compensated
,,green c,i,routes_actual/p2_L_blank_f1xR_tick_f1.jpg,,,,,,,,,,,,,2,15,51,6,,,,,,,,,,,,,,,,,,,,,,,,,,,553.8784654,None,553.3940331,553.8952402,e,1.065078216,553.8784654,None,,,,,,,CK28022020,2020_Feb_28_1603,FOCO (control),3.2.4,59.93123706,not compensated
,,green f1,e,routes_actual/p2_L_tick_f1xR_blank_f2.jpg,,,,,,,,,,,,,2,16,52,10,,,,,,,,,,,,,,,,,,,,,,,,,,,555.596033,None,555.111788,555.612801,i,0.875461075,555.596033,None,,,,,,,CK28022020,2020_Feb_28_1603,FOCO (control),3.2.4,59.93123706,not compensated
,,green f1,i,routes_actual/p3_L_blank_f2xR_tick_f1.jpg,,,,,,,,,,,,,2,17,53,14,,,,,,,,,,,,,,,,,,,,,,,,,,,557.1300764,None,556.6453568,557.1468012,e,1.357491232,557.1300764,None,,,,,,,CK28022020,2020_Feb_28_1603,FOCO (control),3.2.4,59.93123706,not compensated
,,green f1,e,routes_actual/p2_L_tick_f1xR_blank_f2.jpg,,,,,,,,,,,,,0,0,0,10,,,,,,,,,,,,,,,,,,,,,,,,,,,453.1496763,None,452.6766403,453.1984462,e,23.49273927,453.1496763,None,,,,,,,DW27022020,2020_Feb_27_1455,FOCO (control),3.2.4,60.07666468,compensated
,,green f1,i,routes_actual/p2_L_blank_f2xR_tick_f1.jpg,,,,,,,,,,,,,0,1,1,8,,,,,,,,,,,,,,,,,,,,,,,,,,,477.2936066,None,476.8052645,477.3200852,e,11.9564833,477.2936066,None,,,,,,,DW27022020,2020_Feb_27_1455,FOCO (control),3.2.4,60.07666468,not compensated
,,green f2,e,routes_actual/p3_L_tick_f2xR_blank_f1.jpg,,,,,,,,,,,,,0,2,2,17,,,,,,,,,,,,,,,,,,,,,,,,,,,489.9168309,None,489.4265529,489.9439455,e,22.43358378,489.9168309,None,,,,,,,DW27022020,2020_Feb_27_1455,FOCO (control),3.2.4,60.07666468,compensated
,,green f2,e,routes_actual/p2_L_tick_f2xR_blank_f1.jpg,,,,,,,,,,,,,0,3,3,11,,,,,,,,,,,,,,,,,,,,,,,,,,,513.0082514,None,512.5205736,513.0338167,e,13.94332814,513.0082514,None,,,,,,,DW27022020,2020_Feb_27_1455,FOCO (control),3.2.4,60.07666468,compensated
,,green c,e,routes_actual/p2_L_tick_f1xR_blank_f1.jpg,,,,,,,,,,,,,0,4,4,9,,,,,,,,,,,,,,,,,,,,,,,,,,,527.600545,None,527.1127396,527.6295737,e,14.54188363,527.600545,None,,,,,,,DW27022020,2020_Feb_27_1455,FOCO (control),3.2.4,60.07666468,compensated
,,green f2,i,routes_actual/p1_L_blank_f1xR_tick_f2.jpg,,,,,,,,,,,,,0,5,5,1,,,,,,,,,,,,,,,,,,,,,,,,,,,542.8070094,None,542.3217139,542.8357143,e,15.24517382,542.8070094,None,,,,,,,DW27022020,2020_Feb_27_1455,FOCO (control),3.2.4,60.07666468,not compensated
,,green c,i,routes_actual/p1_L_blank_f1xR_tick_f1.jpg,,,,,,,,,,,,,0,6,6,0,,,,,,,,,,,,,,,,,,,,,,,,,,,558.7157448,None,558.2260824,558.7436768,e,39.80172325,558.7157448,None,,,,,,,DW27022020,2020_Feb_27_1455,FOCO (control),3.2.4,60.07666468,not compensated
,,green f1,i,routes_actual/p1_L_blank_f2xR_tick_f1.jpg,,,,,,,,,,,,,0,7,7,2,,,,,,,,,,,,,,,,,,,,,,,,,,,599.1862415,None,598.6971446,599.2119801,e,20.51550835,599.1862415,None,,,,,,,DW27022020,2020_Feb_27_1455,FOCO (control),3.2.4,60.07666468,not compensated
,,green c,i,routes_actual/p3_L_blank_f1xR_tick_f1.jpg,,,,,,,,,,,,,0,8,8,12,,,,,,,,,,,,,,,,,,,,,,,,,,,620.3627502,None,619.8712542,620.3898271,e,12.15154787,620.3627502,None,,,,,,,DW27022020,2020_Feb_27_1455,FOCO (control),3.2.4,60.07666468,not compensated
,,green c,e,routes_actual/p3_L_tick_f1xR_blank_f1.jpg,,,,,,,,,,,,,0,9,9,15,,,,,,,,,,,,,,,,,,,,,,,,,,,633.1687328,None,632.6775367,633.1948426,e,16.21319506,633.1687328,None,,,,,,,DW27022020,2020_Feb_27_1455,FOCO (control),3.2.4,60.07666468,compensated
,,green c,i,routes_actual/p2_L_blank_f1xR_tick_f1.jpg,,,,,,,,,,,,,0,10,10,6,,,,,,,,,,,,,,,,,,,,,,,,,,,650.0434327,None,649.5525627,650.0708986,e,14.28963352,650.0434327,None,,,,,,,DW27022020,2020_Feb_27_1455,FOCO (control),3.2.4,60.07666468,not compensated
,,green f1,i,routes_actual/p3_L_blank_f2xR_tick_f1.jpg,,,,,,,,,,,,,0,11,11,14,,,,,,,,,,,,,,,,,,,,,,,,,,,664.9976818,None,664.509489,665.0260615,i,122.7900748,664.9976818,None,,,,,,,DW27022020,2020_Feb_27_1455,FOCO (control),3.2.4,60.07666468,compensated
,,green f1,e,routes_actual/p3_L_tick_f1xR_blank_f2.jpg,,,,,,,,,,,,,0,12,12,16,,,,,,,,,,,,,,,,,,,,,,,,,,,788.4226499,None,787.9509007,788.4753477,e,11.04300423,788.4226499,None,,,,,,,DW27022020,2020_Feb_27_1455,FOCO (control),3.2.4,60.07666468,compensated
,,green f2,e,routes_actual/p1_L_tick_f2xR_blank_f1.jpg,,,,,,,,,,,,,0,13,13,5,,,,,,,,,,,,,,,,,,,,,,,,,,,800.1292948,None,799.6409746,800.1568478,e,20.33991027,800.1292948,None,,,,,,,DW27022020,2020_Feb_27_1455,FOCO (control),3.2.4,60.07666468,compensated
,,green f1,e,routes_actual/p1_L_tick_f1xR_blank_f2.jpg,,,,,,,,,,,,,0,14,14,4,,,,,,,,,,,,,,,,,,,,,,,,,,,821.1242538,None,820.6492922,821.1723331,e,8.209026767,821.1242538,None,,,,,,,DW27022020,2020_Feb_27_1455,FOCO (control),3.2.4,60.07666468,compensated
,,green f2,i,routes_actual/p2_L_blank_f1xR_tick_f2.jpg,,,,,,,,,,,,,0,15,15,7,,,,,,,,,,,,,,,,,,,,,,,,,,,830.0043664,None,829.5085848,830.0277904,i,13.75295464,830.0043664,None,,,,,,,DW27022020,2020_Feb_27_1455,FOCO (control),3.2.4,60.07666468,compensated
,,green f2,i,routes_actual/p3_L_blank_f1xR_tick_f2.jpg,,,,,,,,,,,,,0,16,16,13,,,,,,,,,,,,,,,,,,,,,,,,,,,844.4178433,None,843.9467251,844.4664443,i,30.37930567,844.4178433,None,,,,,,,DW27022020,2020_Feb_27_1455,FOCO (control),3.2.4,60.07666468,compensated
,,green c,e,routes_actual/p1_L_tick_f1xR_blank_f1.jpg,,,,,,,,,,,,,0,17,17,3,,,,,,,,,,,,,,,,,,,,,,,,,,,875.4816136,None,874.9922136,875.5083776,e,7.435641429,875.4816136,None,,,,,,,DW27022020,2020_Feb_27_1455,FOCO (control),3.2.4,60.07666468,compensated
,,green f1,e,routes_actual/p3_L_tick_f1xR_blank_f2.jpg,,,,,,,,,,,,,1,0,18,16,,,,,,,,,,,,,,,,,,,,,,,,,,,883.5556687,None,883.0804867,883.6037515,e,20.35182217,883.5556687,None,,,,,,,DW27022020,2020_Feb_27_1455,FOCO (control),3.2.4,60.07666468,compensated
,,green f2,i,routes_actual/p1_L_blank_f1xR_tick_f2.jpg,,,,,,,,,,,,,1,1,19,1,,,,,,,,,,,,,,,,,,,,,,,,,,,904.5640991,None,904.0894771,904.6148598,e,6.887364389,904.5640991,None,,,,,,,DW27022020,2020_Feb_27_1455,FOCO (control),3.2.4,60.07666468,not compensated
,,green c,i,routes_actual/p2_L_blank_f1xR_tick_f1.jpg,,,,,,,,,,,,,1,2,20,6,,,,,,,,,,,,,,,,,,,,,,,,,,,912.1017818,None,911.6263002,912.1492925,e,11.78966503,912.1017818,None,,,,,,,DW27022020,2020_Feb_27_1455,FOCO (control),3.2.4,60.07666468,not compensated
,,green f2,e,routes_actual/p2_L_tick_f2xR_blank_f1.jpg,,,,,,,,,,,,,1,3,21,11,,,,,,,,,,,,,,,,,,,,,,,,,,,924.5537415,None,924.0649109,924.5786269,e,9.609704387,924.5537415,None,,,,,,,DW27022020,2020_Feb_27_1455,FOCO (control),3.2.4,60.07666468,compensated
,,green f1,i,routes_actual/p2_L_blank_f2xR_tick_f1.jpg,,,,,,,,,,,,,1,4,22,8,,,,,,,,,,,,,,,,,,,,,,,,,,,934.8376696,None,934.3403481,934.8590991,i,10.37388548,934.8376696,None,,,,,,,DW27022020,2020_Feb_27_1455,FOCO (control),3.2.4,60.07666468,compensated
,,green f1,i,routes_actual/p1_L_blank_f2xR_tick_f1.jpg,,,,,,,,,,,,,1,5,23,2,,,,,,,,,,,,,,,,,,,,,,,,,,,945.8824422,None,945.3922528,945.9088681,e,17.86500273,945.8824422,None,,,,,,,DW27022020,2020_Feb_27_1455,FOCO (control),3.2.4,60.07666468,not compensated
,,green c,e,routes_actual/p1_L_tick_f1xR_blank_f1.jpg,,,,,,,,,,,,,1,6,24,3,,,,,,,,,,,,,,,,,,,,,,,,,,,964.3914899,None,963.9175752,964.4464031,e,6.156025288,964.3914899,None,,,,,,,DW27022020,2020_Feb_27_1455,FOCO (control),3.2.4,60.07666468,compensated
,,green c,i,routes_actual/p3_L_blank_f1xR_tick_f1.jpg,,,,,,,,,,,,,1,7,25,12,,,,,,,,,,,,,,,,,,,,,,,,,,,971.2102938,None,970.7374534,971.2613576,i,7.913110036,971.2102938,None,,,,,,,DW27022020,2020_Feb_27_1455,FOCO (control),3.2.4,60.07666468,compensated
,,green c,i,routes_actual/p1_L_blank_f1xR_tick_f1.jpg,,,,,,,,,,,,,1,8,26,0,,,,,,,,,,,,,,,,,,,,,,,,,,,979.7806579,None,979.2917644,979.8096292,i,11.51880661,979.7806579,None,,,,,,,DW27022020,2020_Feb_27_1455,FOCO (control),3.2.4,60.07666468,compensated
,,green f1,i,routes_actual/p3_L_blank_f2xR_tick_f1.jpg,,,,,,,,,,,,,1,9,27,14,,,,,,,,,,,,,,,,,,,,,,,,,,,991.9535826,None,991.4646926,991.9816337,i,8.385825197,991.9535826,None,,,,,,,DW27022020,2020_Feb_27_1455,FOCO (control),3.2.4,60.07666468,compensated
,,green f2,e,routes_actual/p1_L_tick_f2xR_blank_f1.jpg,,,,,,,,,,,,,1,10,28,5,,,,,,,,,,,,,,,,,,,,,,,,,,,1000.974812,None,1000.50156,1001.024636,e,9.012630591,1000.974812,None,,,,,,,DW27022020,2020_Feb_27_1455,FOCO (control),3.2.4,60.07666468,compensated
,,green f1,e,routes_actual/p1_L_tick_f1xR_blank_f2.jpg,,,,,,,,,,,,,1,11,29,4,,,,,,,,,,,,,,,,,,,,,,,,,,,1010.628189,None,1010.156335,1010.678921,e,16.28717125,1010.628189,None,,,,,,,DW27022020,2020_Feb_27_1455,FOCO (control),3.2.4,60.07666468,compensated
,,green f2,i,routes_actual/p3_L_blank_f1xR_tick_f2.jpg,,,,,,,,,,,,,1,12,30,13,,,,,,,,,,,,,,,,,,,,,,,,,,,1027.570942,None,1027.097918,1027.619264,e,13.69648188,1027.570942,None,,,,,,,DW27022020,2020_Feb_27_1455,FOCO (control),3.2.4,60.07666468,not compensated
,,green f2,e,routes_actual/p3_L_tick_f2xR_blank_f1.jpg,,,,,,,,,,,,,1,13,31,17,,,,,,,,,,,,,,,,,,,,,,,,,,,1041.910107,None,1041.437468,1041.961432,e,9.725292686,1041.910107,None,,,,,,,DW27022020,2020_Feb_27_1455,FOCO (control),3.2.4,60.07666468,compensated
,,green f1,e,routes_actual/p2_L_tick_f1xR_blank_f2.jpg,,,,,,,,,,,,,1,14,32,10,,,,,,,,,,,,,,,,,,,,,,,,,,,1052.282385,None,1051.809918,1052.331018,e,6.321130168,1052.282385,None,,,,,,,DW27022020,2020_Feb_27_1455,FOCO (control),3.2.4,60.07666468,compensated
,,green c,e,routes_actual/p3_L_tick_f1xR_blank_f1.jpg,,,,,,,,,,,,,1,15,33,15,,,,,,,,,,,,,,,,,,,,,,,,,,,1059.269202,None,1058.796668,1059.316899,e,5.7743356,1059.269202,None,,,,,,,DW27022020,2020_Feb_27_1455,FOCO (control),3.2.4,60.07666468,compensated
,,green f2,i,routes_actual/p2_L_blank_f1xR_tick_f2.jpg,,,,,,,,,,,,,1,16,34,7,,,,,,,,,,,,,,,,,,,,,,,,,,,1065.707441,None,1065.232988,1065.757632,i,9.272054756,1065.707441,None,,,,,,,DW27022020,2020_Feb_27_1455,FOCO (control),3.2.4,60.07666468,compensated
,,green c,e,routes_actual/p2_L_tick_f1xR_blank_f1.jpg,,,,,,,,,,,,,1,17,35,9,,,,,,,,,,,,,,,,,,,,,,,,,,,1075.626931,None,1075.153672,1075.675509,e,10.76046664,1075.626931,None,,,,,,,DW27022020,2020_Feb_27_1455,FOCO (control),3.2.4,60.07666468,compensated
,,green f1,i,routes_actual/p2_L_blank_f2xR_tick_f1.jpg,,,,,,,,,,,,,2,0,36,8,,,,,,,,,,,,,,,,,,,,,,,,,,,1087.03128,None,1086.558758,1087.082103,i,21.18817444,1087.03128,None,,,,,,,DW27022020,2020_Feb_27_1455,FOCO (control),3.2.4,60.07666468,compensated
,,green f2,e,routes_actual/p2_L_tick_f2xR_blank_f1.jpg,,,,,,,,,,,,,2,1,37,11,,,,,,,,,,,,,,,,,,,,,,,,,,,1108.876301,None,1108.402909,1108.926428,e,4.503106087,1108.876301,None,,,,,,,DW27022020,2020_Feb_27_1455,FOCO (control),3.2.4,60.07666468,compensated
,,green f2,i,routes_actual/p2_L_blank_f1xR_tick_f2.jpg,,,,,,,,,,,,,2,2,38,7,,,,,,,,,,,,,,,,,,,,,,,,,,,1114.028787,None,1113.542511,1114.057321,i,6.406630062,1114.028787,None,,,,,,,DW27022020,2020_Feb_27_1455,FOCO (control),3.2.4,60.07666468,compensated
,,green c,i,routes_actual/p1_L_blank_f1xR_tick_f1.jpg,,,,,,,,,,,,,2,3,39,0,,,,,,,,,,,,,,,,,,,,,,,,,,,1121.080464,None,1120.608483,1121.131986,e,5.354952005,1121.080464,None,,,,,,,DW27022020,2020_Feb_27_1455,FOCO (control),3.2.4,60.07666468,not compensated
,,green c,e,routes_actual/p2_L_tick_f1xR_blank_f1.jpg,,,,,,,,,,,,,2,4,40,9,,,,,,,,,,,,,,,,,,,,,,,,,,,1127.100801,None,1126.612136,1127.128453,e,4.830584849,1127.100801,None,,,,,,,DW27022020,2020_Feb_27_1455,FOCO (control),3.2.4,60.07666468,compensated
,,green f1,e,routes_actual/p2_L_tick_f1xR_blank_f2.jpg,,,,,,,,,,,,,2,5,41,10,,,,,,,,,,,,,,,,,,,,,,,,,,,1132.585852,None,1132.098487,1132.615413,e,5.577614076,1132.585852,None,,,,,,,DW27022020,2020_Feb_27_1455,FOCO (control),3.2.4,60.07666468,compensated
,,green f1,e,routes_actual/p3_L_tick_f1xR_blank_f2.jpg,,,,,,,,,,,,,2,6,42,16,,,,,,,,,,,,,,,,,,,,,,,,,,,1138.823687,None,1138.350475,1138.872994,e,4.867768746,1138.823687,None,,,,,,,DW27022020,2020_Feb_27_1455,FOCO (control),3.2.4,60.07666468,compensated
,,green f1,i,routes_actual/p1_L_blank_f2xR_tick_f1.jpg,,,,,,,,,,,,,2,7,43,2,,,,,,,,,,,,,,,,,,,,,,,,,,,1144.359042,None,1143.92007,1144.436703,i,4.356489607,1144.359042,None,,,,,,,DW27022020,2020_Feb_27_1455,FOCO (control),3.2.4,60.07666468,compensated
,,green f2,e,routes_actual/p1_L_tick_f2xR_blank_f1.jpg,,,,,,,,,,,,,2,8,44,5,,,,,,,,,,,,,,,,,,,,,,,,,,,1149.394167,None,1148.906002,1149.423604,e,4.553170778,1149.394167,None,,,,,,,DW27022020,2020_Feb_27_1455,FOCO (control),3.2.4,60.07666468,compensated
,,green c,i,routes_actual/p3_L_blank_f1xR_tick_f1.jpg,,,,,,,,,,,,,2,9,45,12,,,,,,,,,,,,,,,,,,,,,,,,,,,1154.58127,None,1154.1073,1154.630738,i,5.590183676,1154.58127,None,,,,,,,DW27022020,2020_Feb_27_1455,FOCO (control),3.2.4,60.07666468,compensated
,,green f1,i,routes_actual/p3_L_blank_f2xR_tick_f1.jpg,,,,,,,,,,,,,2,10,46,14,,,,,,,,,,,,,,,,,,,,,,,,,,,1160.818589,None,1160.344359,1160.865352,i,4.625010851,1160.818589,None,,,,,,,DW27022020,2020_Feb_27_1455,FOCO (control),3.2.4,60.07666468,compensated
,,green f2,i,routes_actual/p1_L_blank_f1xR_tick_f2.jpg,,,,,,,,,,,,,2,11,47,1,,,,,,,,,,,,,,,,,,,,,,,,,,,1166.104201,None,1165.630124,1166.152813,i,7.275376311,1166.104201,None,,,,,,,DW27022020,2020_Feb_27_1455,FOCO (control),3.2.4,60.07666468,compensated
,,green f1,e,routes_actual/p1_L_tick_f1xR_blank_f2.jpg,,,,,,,,,,,,,2,12,48,4,,,,,,,,,,,,,,,,,,,,,,,,,,,1174.039646,None,1173.567997,1174.090719,e,7.531674034,1174.039646,None,,,,,,,DW27022020,2020_Feb_27_1455,FOCO (control),3.2.4,60.07666468,compensated
,,green c,e,routes_actual/p3_L_tick_f1xR_blank_f1.jpg,,,,,,,,,,,,,2,13,49,15,,,,,,,,,,,,,,,,,,,,,,,,,,,1182.228014,None,1181.754849,1182.276864,e,6.047426684,1182.228014,None,,,,,,,DW27022020,2020_Feb_27_1455,FOCO (control),3.2.4,60.07666468,compensated
,,green f2,i,routes_actual/p3_L_blank_f1xR_tick_f2.jpg,,,,,,,,,,,,,2,14,50,13,,,,,,,,,,,,,,,,,,,,,,,,,,,1188.914345,None,1188.44139,1188.964039,i,4.697128896,1188.914345,None,,,,,,,DW27022020,2020_Feb_27_1455,FOCO (control),3.2.4,60.07666468,compensated
,,green c,e,routes_actual/p1_L_tick_f1xR_blank_f1.jpg,,,,,,,,,,,,,2,15,51,3,,,,,,,,,,,,,,,,,,,,,,,,,,,1194.268437,None,1193.794096,1194.31866,e,4.23093817,1194.268437,None,,,,,,,DW27022020,2020_Feb_27_1455,FOCO (control),3.2.4,60.07666468,compensated
,,green c,i,routes_actual/p2_L_blank_f1xR_tick_f1.jpg,,,,,,,,,,,,,2,16,52,6,,,,,,,,,,,,,,,,,,,,,,,,,,,1199.153101,None,1198.679613,1199.201983,i,5.922405345,1199.153101,None,,,,,,,DW27022020,2020_Feb_27_1455,FOCO (control),3.2.4,60.07666468,compensated
,,green f2,e,routes_actual/p3_L_tick_f2xR_blank_f1.jpg,,,,,,,,,,,,,2,17,53,17,,,,,,,,,,,,,,,,,,,,,,,,,,,1205.738776,None,1205.265303,1205.790676,e,5.44871603,1205.738776,None,,,,,,,DW27022020,2020_Feb_27_1455,FOCO (control),3.2.4,60.07666468,compensated
,,green f1,i,routes_actual/p2_L_blank_f2xR_tick_f1.jpg,,,,,,,,,,,,,0,0,0,8,,,,,,,,,,,,,,,,,,,,,,,,,,,447.6824407,None,447.2094238,447.7327579,i,18.1536606,447.6824407,None,,,,,,,JA28022020,2020_Feb_28_2020,FOCO (control),3.2.4,60.69410053,compensated
,,green f1,e,routes_actual/p3_L_tick_f1xR_blank_f2.jpg,,,,,,,,,,,,,0,1,1,16,,,,,,,,,,,,,,,,,,,,,,,,,,,466.4907573,None,466.0040067,466.5190089,i,35.84521843,466.4907573,None,,,,,,,JA28022020,2020_Feb_28_2020,FOCO (control),3.2.4,60.69410053,not compensated
,,green f2,e,routes_actual/p2_L_tick_f2xR_blank_f1.jpg,,,,,,,,,,,,,0,2,2,11,,,,,,,,,,,,,,,,,,,,,,,,,,,502.9760786,None,502.5013913,503.0267417,e,11.90342458,502.9760786,None,,,,,,,JA28022020,2020_Feb_28_2020,FOCO (control),3.2.4,60.69410053,compensated
,,green c,e,routes_actual/p3_L_tick_f1xR_blank_f1.jpg,,,,,,,,,,,,,0,3,3,15,,,,,,,,,,,,,,,,,,,,,,,,,,,515.5324304,None,515.0422017,515.5590291,e,35.21585654,515.5324304,None,,,,,,,JA28022020,2020_Feb_28_2020,FOCO (control),3.2.4,60.69410053,compensated
,,green c,i,routes_actual/p1_L_blank_f1xR_tick_f1.jpg,,,,,,,,,,,,,0,4,4,0,,,,,,,,,,,,,,,,,,,,,,,,,,,551.3987944,None,550.9238999,551.4503121,i,17.11207463,551.3987944,None,,,,,,,JA28022020,2020_Feb_28_2020,FOCO (control),3.2.4,60.69410053,compensated
,,green f1,i,routes_actual/p1_L_blank_f2xR_tick_f1.jpg,,,,,,,,,,,,,0,5,5,2,,,,,,,,,,,,,,,,,,,,,,,,,,,569.1732183,None,568.6839285,569.2004009,i,34.00966982,569.1732183,None,,,,,,,JA28022020,2020_Feb_28_2020,FOCO (control),3.2.4,60.69410053,compensated
,,green f1,e,routes_actual/p2_L_tick_f1xR_blank_f2.jpg,,,,,,,,,,,,,0,6,6,10,,,,,,,,,,,,,,,,,,,,,,,,,,,603.8573592,None,603.3648548,603.884506,e,11.78143736,603.8573592,None,,,,,,,JA28022020,2020_Feb_28_2020,FOCO (control),3.2.4,60.69410053,compensated
,,green c,i,routes_actual/p2_L_blank_f1xR_tick_f1.jpg,,,,,,,,,,,,,0,7,7,6,,,,,,,,,,,,,,,,,,,,,,,,,,,616.2984899,None,615.8065431,616.3242035,i,36.17266497,616.2984899,None,,,,,,,JA28022020,2020_Feb_28_2020,FOCO (control),3.2.4,60.69410053,compensated
,,green f1,i,routes_actual/p3_L_blank_f2xR_tick_f1.jpg,,,,,,,,,,,,,0,8,8,14,,,,,,,,,,,,,,,,,,,,,,,,,,,653.1302233,None,652.6421153,653.155453,i,8.670238505,653.1302233,None,,,,,,,JA28022020,2020_Feb_28_2020,FOCO (control),3.2.4,60.69410053,compensated
,,green f2,e,routes_actual/p3_L_tick_f2xR_blank_f1.jpg,,,,,,,,,,,,,0,9,9,17,,,,,,,,,,,,,,,,,,,,,,,,,,,662.4516776,None,661.9639741,662.4803197,e,9.460896657,662.4516776,None,,,,,,,JA28022020,2020_Feb_28_2020,FOCO (control),3.2.4,60.69410053,compensated
,,green c,e,routes_actual/p2_L_tick_f1xR_blank_f1.jpg,,,,,,,,,,,,,0,10,10,9,,,,,,,,,,,,,,,,,,,,,,,,,,,672.5724514,None,672.0818339,672.5997806,e,23.85283804,672.5724514,None,,,,,,,JA28022020,2020_Feb_28_2020,FOCO (control),3.2.4,60.69410053,compensated
,,green f2,i,routes_actual/p2_L_blank_f1xR_tick_f2.jpg,,,,,,,,,,,,,0,11,11,7,,,,,,,,,,,,,,,,,,,,,,,,,,,697.0850663,None,696.5945774,697.1118618,i,23.85220318,697.0850663,None,,,,,,,JA28022020,2020_Feb_28_2020,FOCO (control),3.2.4,60.69410053,compensated
,,green c,e,routes_actual/p1_L_tick_f1xR_blank_f1.jpg,,,,,,,,,,,,,0,12,12,3,,,,,,,,,,,,,,,,,,,,,,,,,,,721.6134109,None,721.1213245,721.6389691,e,22.45991142,721.6134109,None,,,,,,,JA28022020,2020_Feb_28_2020,FOCO (control),3.2.4,60.69410053,compensated
,,green f2,i,routes_actual/p3_L_blank_f1xR_tick_f2.jpg,,,,,,,,,,,,,0,13,13,13,,,,,,,,,,,,,,,,,,,,,,,,,,,744.742012,None,744.2656953,744.7928414,i,23.59518773,744.742012,None,,,,,,,JA28022020,2020_Feb_28_2020,FOCO (control),3.2.4,60.69410053,compensated
,,green f2,e,routes_actual/p1_L_tick_f2xR_blank_f1.jpg,,,,,,,,,,,,,0,14,14,5,,,,,,,,,,,,,,,,,,,,,,,,,,,768.9849332,None,768.5108164,769.0338478,e,26.488334,768.9849332,None,,,,,,,JA28022020,2020_Feb_28_2020,FOCO (control),3.2.4,60.69410053,compensated
,,green f2,i,routes_actual/p1_L_blank_f1xR_tick_f2.jpg,,,,,,,,,,,,,0,15,15,1,,,,,,,,,,,,,,,,,,,,,,,,,,,796.1154668,None,795.6405818,796.1676811,i,14.06973133,796.1154668,None,,,,,,,JA28022020,2020_Feb_28_2020,FOCO (control),3.2.4,60.69410053,compensated
,,green f1,e,routes_actual/p1_L_tick_f1xR_blank_f2.jpg,,,,,,,,,,,,,0,16,16,4,,,,,,,,,,,,,,,,,,,,,,,,,,,810.8398513,None,810.3629877,810.8909397,e,22.23180716,810.8398513,None,,,,,,,JA28022020,2020_Feb_28_2020,FOCO (control),3.2.4,60.69410053,compensated
,,green c,i,routes_actual/p3_L_blank_f1xR_tick_f1.jpg,,,,,,,,,,,,,0,17,17,12,,,,,,,,,,,,,,,,,,,,,,,,,,,833.7341772,None,833.2413966,833.7595233,i,12.92149217,833.7341772,None,,,,,,,JA28022020,2020_Feb_28_2020,FOCO (control),3.2.4,60.69410053,compensated
,,green c,i,routes_actual/p1_L_blank_f1xR_tick_f1.jpg,,,,,,,,,,,,,1,0,18,0,,,,,,,,,,,,,,,,,,,,,,,,,,,847.3070659,None,846.8317209,847.3590672,i,8.396427669,847.3070659,None,,,,,,,JA28022020,2020_Feb_28_2020,FOCO (control),3.2.4,60.69410053,compensated
,,green f2,e,routes_actual/p2_L_tick_f2xR_blank_f1.jpg,,,,,,,,,,,,,1,1,19,11,,,,,,,,,,,,,,,,,,,,,,,,,,,856.3627927,None,855.8694688,856.3884616,e,15.30916283,856.3627927,None,,,,,,,JA28022020,2020_Feb_28_2020,FOCO (control),3.2.4,60.69410053,compensated
,,green f2,e,routes_actual/p3_L_tick_f2xR_blank_f1.jpg,,,,,,,,,,,,,1,2,20,17,,,,,,,,,,,,,,,,,,,,,,,,,,,872.3177507,None,871.8433215,872.3696504,i,15.58616984,872.3177507,None,,,,,,,JA28022020,2020_Feb_28_2020,FOCO (control),3.2.4,60.69410053,not compensated
,,green f1,i,routes_actual/p3_L_blank_f2xR_tick_f1.jpg,,,,,,,,,,,,,1,3,21,14,,,,,,,,,,,,,,,,,,,,,,,,,,,888.5746649,None,888.0841125,888.6007631,i,15.88903975,888.5746649,None,,,,,,,JA28022020,2020_Feb_28_2020,FOCO (control),3.2.4,60.69410053,compensated
,,green f1,e,routes_actual/p3_L_tick_f1xR_blank_f2.jpg,,,,,,,,,,,,,1,4,22,16,,,,,,,,,,,,,,,,,,,,,,,,,,,905.1168478,None,904.6423561,905.1693406,e,16.69885563,905.1168478,None,,,,,,,JA28022020,2020_Feb_28_2020,FOCO (control),3.2.4,60.69410053,compensated
,,green c,i,routes_actual/p2_L_blank_f1xR_tick_f1.jpg,,,,,,,,,,,,,1,5,23,6,,,,,,,,,,,,,,,,,,,,,,,,,,,922.4582559,None,921.9829273,922.5106707,i,10.41344184,922.4582559,None,,,,,,,JA28022020,2020_Feb_28_2020,FOCO (control),3.2.4,60.69410053,compensated
,,green f1,e,routes_actual/p2_L_tick_f1xR_blank_f2.jpg,,,,,,,,,,,,,1,6,24,10,,,,,,,,,,,,,,,,,,,,,,,,,,,933.5293863,None,933.0397934,933.5549483,e,10.31018386,933.5293863,None,,,,,,,JA28022020,2020_Feb_28_2020,FOCO (control),3.2.4,60.69410053,compensated
,,green f2,e,routes_actual/p1_L_tick_f2xR_blank_f1.jpg,,,,,,,,,,,,,1,7,25,5,,,,,,,,,,,,,,,,,,,,,,,,,,,944.48415,None,944.0106132,944.5348245,e,5.395542098,944.48415,None,,,,,,,JA28022020,2020_Feb_28_2020,FOCO (control),3.2.4,60.69410053,compensated
,,green f1,e,routes_actual/p1_L_tick_f1xR_blank_f2.jpg,,,,,,,,,,,,,1,8,26,4,,,,,,,,,,,,,,,,,,,,,,,,,,,950.5202628,None,950.0470308,950.5723542,e,12.00743062,950.5202628,None,,,,,,,JA28022020,2020_Feb_28_2020,FOCO (control),3.2.4,60.69410053,compensated
,,green f2,i,routes_actual/p2_L_blank_f1xR_tick_f2.jpg,,,,,,,,,,,,,1,9,27,7,,,,,,,,,,,,,,,,,,,,,,,,,,,963.1786363,None,962.7033408,963.2293805,i,9.885107911,963.1786363,None,,,,,,,JA28022020,2020_Feb_28_2020,FOCO (control),3.2.4,60.69410053,compensated
,,green f2,i,routes_actual/p3_L_blank_f1xR_tick_f2.jpg,,,,,,,,,,,,,1,10,28,13,,,,,,,,,,,,,,,,,,,,,,,,,,,973.7341374,None,973.2419913,973.7602751,i,9.489547559,973.7341374,None,,,,,,,JA28022020,2020_Feb_28_2020,FOCO (control),3.2.4,60.69410053,compensated
,,green f1,i,routes_actual/p2_L_blank_f2xR_tick_f1.jpg,,,,,,,,,,,,,1,11,29,8,,,,,,,,,,,,,,,,,,,,,,,,,,,983.8853005,None,983.3966884,983.9141588,i,17.19432853,983.8853005,None,,,,,,,JA28022020,2020_Feb_28_2020,FOCO (control),3.2.4,60.69410053,compensated
,,green c,e,routes_actual/p3_L_tick_f1xR_blank_f1.jpg,,,,,,,,,,,,,1,12,30,15,,,,,,,,,,,,,,,,,,,,,,,,,,,1001.730094,None,1001.254409,1001.781621,e,41.08673448,1001.730094,None,,,,,,,JA28022020,2020_Feb_28_2020,FOCO (control),3.2.4,60.69410053,compensated
,,green c,e,routes_actual/p1_L_tick_f1xR_blank_f1.jpg,,,,,,,,,,,,,1,13,31,3,,,,,,,,,,,,,,,,,,,,,,,,,,,1043.483176,None,1043.041507,1043.560208,e,11.59656393,1043.483176,None,,,,,,,JA28022020,2020_Feb_28_2020,FOCO (control),3.2.4,60.69410053,compensated
,,green c,i,routes_actual/p3_L_blank_f1xR_tick_f1.jpg,,,,,,,,,,,,,1,14,32,12,,,,,,,,,,,,,,,,,,,,,,,,,,,1055.756915,None,1055.26525,1055.782599,i,8.146574284,1055.756915,None,,,,,,,JA28022020,2020_Feb_28_2020,FOCO (control),3.2.4,60.69410053,compensated
,,green c,e,routes_actual/p2_L_tick_f1xR_blank_f1.jpg,,,,,,,,,,,,,1,15,33,9,,,,,,,,,,,,,,,,,,,,,,,,,,,1064.558744,None,1064.084401,1064.608347,e,14.15294711,1064.558744,None,,,,,,,JA28022020,2020_Feb_28_2020,FOCO (control),3.2.4,60.69410053,compensated
,,green f2,i,routes_actual/p1_L_blank_f1xR_tick_f2.jpg,,,,,,,,,,,,,1,16,34,1,,,,,,,,,,,,,,,,,,,,,,,,,,,1079.367219,None,1078.874711,1079.394966,i,9.39261755,1079.367219,None,,,,,,,JA28022020,2020_Feb_28_2020,FOCO (control),3.2.4,60.69410053,compensated
,,green f1,i,routes_actual/p1_L_blank_f2xR_tick_f1.jpg,,,,,,,,,,,,,1,17,35,2,,,,,,,,,,,,,,,,,,,,,,,,,,,1089.421786,None,1088.946265,1089.469612,i,9.634079763,1089.421786,None,,,,,,,JA28022020,2020_Feb_28_2020,FOCO (control),3.2.4,60.69410053,compensated
,,green f1,i,routes_actual/p1_L_blank_f2xR_tick_f1.jpg,,,,,,,,,,,,,2,0,36,2,,,,,,,,,,,,,,,,,,,,,,,,,,,1099.707491,None,1099.23412,1099.758495,i,6.33223963,1099.707491,None,,,,,,,JA28022020,2020_Feb_28_2020,FOCO (control),3.2.4,60.69410053,compensated
,,green c,e,routes_actual/p1_L_tick_f1xR_blank_f1.jpg,,,,,,,,,,,,,2,1,37,3,,,,,,,,,,,,,,,,,,,,,,,,,,,1106.69473,None,1106.203778,1106.722812,e,6.233031044,1106.69473,None,,,,,,,JA28022020,2020_Feb_28_2020,FOCO (control),3.2.4,60.69410053,compensated
,,green c,i,routes_actual/p2_L_blank_f1xR_tick_f1.jpg,,,,,,,,,,,,,2,2,38,6,,,,,,,,,,,,,,,,,,,,,,,,,,,1113.581871,None,1113.107185,1113.633366,i,7.14584475,1113.581871,None,,,,,,,JA28022020,2020_Feb_28_2020,FOCO (control),3.2.4,60.69410053,compensated
,,green f2,e,routes_actual/p1_L_tick_f2xR_blank_f1.jpg,,,,,,,,,,,,,2,3,39,5,,,,,,,,,,,,,,,,,,,,,,,,,,,1121.38648,None,1120.910686,1121.437051,e,6.701153118,1121.38648,None,,,,,,,JA28022020,2020_Feb_28_2020,FOCO (control),3.2.4,60.69410053,compensated
,,green f2,e,routes_actual/p3_L_tick_f2xR_blank_f1.jpg,,,,,,,,,,,,,2,4,40,17,,,,,,,,,,,,,,,,,,,,,,,,,,,1128.739611,None,1128.26486,1128.788649,e,7.30810007,1128.739611,None,,,,,,,JA28022020,2020_Feb_28_2020,FOCO (control),3.2.4,60.69410053,compensated
,,green f2,e,routes_actual/p2_L_tick_f2xR_blank_f1.jpg,,,,,,,,,,,,,2,5,41,11,,,,,,,,,,,,,,,,,,,,,,,,,,,1136.708543,None,1136.234724,1136.7595,e,7.107126072,1136.708543,None,,,,,,,JA28022020,2020_Feb_28_2020,FOCO (control),3.2.4,60.69410053,compensated
,,green f2,i,routes_actual/p2_L_blank_f1xR_tick_f2.jpg,,,,,,,,,,,,,2,6,42,7,,,,,,,,,,,,,,,,,,,,,,,,,,,1144.481871,None,1143.989201,1144.508105,i,11.19787154,1144.481871,None,,,,,,,JA28022020,2020_Feb_28_2020,FOCO (control),3.2.4,60.69410053,compensated
,,green c,e,routes_actual/p3_L_tick_f1xR_blank_f1.jpg,,,,,,,,,,,,,2,7,43,15,,,,,,,,,,,,,,,,,,,,,,,,,,,1156.337414,None,1155.860568,1156.387004,e,8.454239477,1156.337414,None,,,,,,,JA28022020,2020_Feb_28_2020,FOCO (control),3.2.4,60.69410053,compensated
,,green f2,i,routes_actual/p3_L_blank_f1xR_tick_f2.jpg,,,,,,,,,,,,,2,8,44,13,,,,,,,,,,,,,,,,,,,,,,,,,,,1165.439963,None,1164.965269,1165.490022,i,38.15174627,1165.439963,None,,,,,,,JA28022020,2020_Feb_28_2020,FOCO (control),3.2.4,60.69410053,compensated
,,green f1,e,routes_actual/p3_L_tick_f1xR_blank_f2.jpg,,,,,,,,,,,,,2,9,45,16,,,,,,,,,,,,,,,,,,,,,,,,,,,1204.242013,None,1203.76759,1204.292803,e,7.325808411,1204.242013,None,,,,,,,JA28022020,2020_Feb_28_2020,FOCO (control),3.2.4,60.69410053,compensated
,,green c,e,routes_actual/p2_L_tick_f1xR_blank_f1.jpg,,,,,,,,,,,,,2,10,46,9,,,,,,,,,,,,,,,,,,,,,,,,,,,1212.230786,None,1211.753738,1212.281116,e,10.03304454,1212.230786,None,,,,,,,JA28022020,2020_Feb_28_2020,FOCO (control),3.2.4,60.69410053,compensated
,,green f1,i,routes_actual/p3_L_blank_f2xR_tick_f1.jpg,,,,,,,,,,,,,2,11,47,14,,,,,,,,,,,,,,,,,,,,,,,,,,,1222.917012,None,1222.426616,1222.943388,i,17.98698545,1222.917012,None,,,,,,,JA28022020,2020_Feb_28_2020,FOCO (control),3.2.4,60.69410053,compensated
,,green f1,e,routes_actual/p1_L_tick_f1xR_blank_f2.jpg,,,,,,,,,,,,,2,12,48,4,,,,,,,,,,,,,,,,,,,,,,,,,,,1241.558548,None,1241.069187,1241.587732,e,10.59313536,1241.558548,None,,,,,,,JA28022020,2020_Feb_28_2020,FOCO (control),3.2.4,60.69410053,compensated
,,green f2,i,routes_actual/p1_L_blank_f1xR_tick_f2.jpg,,,,,,,,,,,,,2,13,49,1,,,,,,,,,,,,,,,,,,,,,,,,,,,1252.851143,None,1252.360528,1252.876493,i,11.18055845,1252.851143,None,,,,,,,JA28022020,2020_Feb_28_2020,FOCO (control),3.2.4,60.69410053,compensated
,,green c,i,routes_actual/p3_L_blank_f1xR_tick_f1.jpg,,,,,,,,,,,,,2,14,50,12,,,,,,,,,,,,,,,,,,,,,,,,,,,1264.707778,None,1264.229856,1264.76496,i,9.500217451,1264.707778,None,,,,,,,JA28022020,2020_Feb_28_2020,FOCO (control),3.2.4,60.69410053,compensated
,,green f1,e,routes_actual/p2_L_tick_f1xR_blank_f2.jpg,,,,,,,,,,,,,2,15,51,10,,,,,,,,,,,,,,,,,,,,,,,,,,,1274.88674,None,1274.401747,1274.914272,e,12.38496394,1274.88674,None,,,,,,,JA28022020,2020_Feb_28_2020,FOCO (control),3.2.4,60.69410053,compensated
,,green c,i,routes_actual/p1_L_blank_f1xR_tick_f1.jpg,,,,,,,,,,,,,2,16,52,0,,,,,,,,,,,,,,,,,,,,,,,,,,,1287.949745,None,1287.457869,1287.975172,i,10.5860292,1287.949745,None,,,,,,,JA28022020,2020_Feb_28_2020,FOCO (control),3.2.4,60.69410053,compensated
,,green f1,i,routes_actual/p2_L_blank_f2xR_tick_f1.jpg,,,,,,,,,,,,,2,17,53,8,,,,,,,,,,,,,,,,,,,,,,,,,,,1299.187392,None,1298.695487,1299.215318,i,13.22027412,1299.187392,None,,,,,,,JA28022020,2020_Feb_28_2020,FOCO (control),3.2.4,60.69410053,compensated
